File: A题/battery_data/5Nature论文电池数据集/Capacity_data_csv/Capacity_data.csv
Cycle,Capacity_Ah
0,37.20271
1,36.22303
2,35.5893
3,35.10808
4,34.76728
5,34.51914
6,34.31969
7,34.17658
8,34.04663
9,34.18753
10,34.07005
11,33.97044
12,33.77004
13,33.70503
14,33.71014
15,33.74975
16,33.67808
17,33.54328
18,33.57989
19,33.41692
20,33.54879
21,33.48888
22,33.46614
23,33.30558
24,33.28812
25,33.2665
26,33.38786
27,33.38368
28,33.28306
29,33.095
30,33.05934
31,33.00589
32,32.9773
33,32.93551
34,32.89801
35,32.86387
36,32.81979
37,32.77469
38,32.79736
39,32.75672
40,32.69147
41,32.68127
42,32.66245
43,32.82705
44,32.82064
45,32.79373
46,32.57228
47,32.5068
48,32.48595
49,32.62446
50,32.59867
51,32.49097
52,32.36157
53,32.37905
54,32.41867
55,32.45003
56,32.40339
57,32.22724
58,32.19196
59,32.14438
60,32.30145
61,32.26452
62,32.24551
63,32.05442
64,32.00996
65,32.00484
66,32.09426
67,32.08527
68,32.07209
69,31.86251
70,31.83152
71,31.79246
72,31.81887
73,31.75775
74,31.71534
75,31.67409
76,31.63687
77,31.60067
78,31.61796
79,31.5975
80,31.51869
81,31.49502
82,31.43062
83,31.58672
84,31.55741
85,31.52708
86,31.33172
87,31.27287
88,31.28581
89,31.39977
90,31.36125
91,31.28096
92,31.09326
93,31.00122
94,31.0076
95,31.11822
96,31.14519
97,31.11905
98,30.86233
99,30.82642
100,30.71305
101,30.80377
102,30.85673
103,30.78594
104,30.50536
105,30.47258
106,30.34655
107,30.50999
108,30.49051
109,30.39563
110,30.19904
111,30.21263
112,30.10972
113,30.07405
114,29.95982
115,29.83496
116,29.85543
117,29.72024
118,29.60307
119,29.59823
120,29.49157
121,29.43612
122,29.26907
123,29.15116
124,29.08011
125,29.22588
126,29.21082
127,29.1352
128,28.8959
129,28.75198
130,28.74296
131,28.78606
132,28.82256
133,28.63813
134,28.41624
135,28.2444
136,28.20996
137,28.31554
138,28.41683
139,28.21726
140,27.89986
141,27.69998
142,27.82582
143,27.89721
144,27.91052
145,27.84268
146,27.46271
147,27.43227
148,27.35127
149,27.5592
150,27.61069
151,27.59251
152,27.09533
153,27.22589
154,27.10729
155,26.99298
156,27.52707
157,27.17517
158,26.84469
159,26.86718
160,26.79925
161,26.7404
162,26.75407
163,26.68851
164,26.56393
165,26.46313
166,26.22058
167,26.44036
168,26.16873
169,26.23725
170,26.05509
171,25.72758
172,25.63926
173,25.54457
174,25.71047
175,25.62528
176,25.54471
177,25.22396
178,25.13619
179,25.01646
180,25.14023
181,25.14129
182,25.01977
183,24.68764
184,24.58035
185,24.43739
186,24.47442
187,24.60285
188,24.44618
189,24.13171
190,24.00634
191,23.87776
192,23.75884
193,23.85814
194,23.94127
195,23.70942
196,23.36921
197,23.16277
198,22.97566
199,22.63581
200,36.7717
201,35.63747
202,34.56488
203,33.85038
204,33.37832
205,32.96715
206,32.73627
207,32.58206
208,32.4143
209,32.23382
210,32.1315
211,32.00968
212,31.87217
213,31.7529
214,31.70604
215,31.68117
216,31.56552
217,31.45425
218,31.36233
219,31.29419
220,31.24853
221,31.21282
222,31.13388
223,31.04638
224,31.02255
225,31.01906
226,30.96767
227,30.89023
228,30.82419
229,30.81132
230,30.76906
231,30.72574
232,30.73504
233,30.63349
234,30.57564
235,30.56924
236,30.54765
237,30.5222
238,30.48589
239,30.39266
240,30.38649
241,30.36581
242,30.35001
243,30.28889
244,30.30049
245,30.23085
246,30.24341
247,30.19888
248,30.21163
249,30.1623
250,30.1589
251,30.10592
252,30.06532
253,30.02151
254,30.00904
255,29.99051
256,29.9641
257,29.91042
258,29.85402
259,29.85047
260,29.83163
261,29.80071
262,29.8063
263,29.75602
264,29.70373
265,29.66263
266,29.62052
267,29.68505
268,29.66755
269,29.67856
270,29.62393
271,29.60211
272,29.58326
273,29.58806
274,29.5581
275,29.51865
276,29.50513
277,29.51701
278,29.55075
279,29.51203
280,29.44575
281,29.42559
282,29.38393
283,29.37071
284,29.33961
285,29.39301
286,29.34808
287,29.30225
288,29.11517
289,29.0934
290,29.08581
291,29.10207
292,29.1189
293,29.14333
294,29.02919
295,28.99254
296,28.99989
297,28.97438
298,29.03469
299,28.98304
300,28.91847
301,28.87474
302,28.93277
303,28.91105
304,28.91841
305,28.96362
306,28.91335
307,28.92133
308,28.92249
309,28.98839
310,28.87152
311,28.75883
312,28.69938
313,28.64556
314,28.62264
315,28.66045
316,28.74053
317,28.65482
318,28.61656
319,28.57191
320,28.55213
321,28.61814
322,28.62662
323,28.58612
324,28.50506
325,28.5034
326,28.48674
327,28.51954
328,28.5824
329,28.58159
330,28.5133
331,28.50286
332,28.50801
333,28.4818
334,28.4844
335,28.47226
336,28.42864
337,28.41686
338,28.40305
339,28.37069
340,28.41211
341,28.36728
342,28.3488
343,28.32844
344,28.32331
345,28.31351
346,28.33866
347,28.30913
348,28.25137
349,28.23495
350,28.24336
351,28.23469
352,28.22613
353,28.19258
354,28.17204
355,28.1111
356,28.11518
357,28.13132
358,28.19676
359,28.18437
360,28.11749
361,28.13266
362,28.02905
363,28.02667
364,28.03148
365,28.06431
366,27.99707
367,27.95772
368,27.92223
369,27.91638
370,27.95226
371,27.94183
372,27.87029
373,27.82689
374,27.78528
375,27.75411
376,27.89999
377,27.86396
378,27.78066
379,27.77488
380,27.73809
381,27.72748
382,27.80459
383,27.79958
384,27.72833
385,27.67734
386,27.66824
387,27.70283
388,27.82278
389,27.85994
390,27.80012
391,27.7526
392,27.75206
393,27.71557
394,27.79909
395,27.78768
396,27.55869
397,27.50134
398,27.38704
399,27.29572
400,27.46615
401,27.49224
402,27.42757
403,27.28525
404,27.26945
405,27.23247
406,27.37144
407,27.41615
408,27.42029
409,27.31475
410,27.32331
411,27.29773
412,27.40099
413,27.71508
414,27.7033
415,27.70159
416,27.70892
417,27.70584
418,27.70579
419,27.71022
420,27.67093
421,27.67447
422,27.65562
423,27.66178
424,27.65471
425,27.63007
426,27.57366
427,27.53385
428,27.52197
429,27.47997
430,27.56011
431,27.23649
432,27.17878
433,26.93252
434,26.83302
435,26.77427
436,26.97453
437,27.13267
438,26.97162
439,26.6948
440,26.67924
441,26.66395
442,26.89733
443,27.01507
444,26.99532
445,26.77299
446,26.69946
447,26.67002
448,26.8918
449,26.95715
450,35.06084
451,32.24272
452,30.33672
453,29.34777
454,28.71545
455,28.31015
456,28.02312
457,27.85251
458,27.7517
459,27.62321
460,27.48992
461,27.28971
462,27.24092
463,27.278
464,27.19134
465,27.12985
466,27.05306
467,26.99834
468,27.08141
469,27.0975
470,27.09483
471,27.11561
472,27.05905
473,26.98226
474,27.02987
475,27.11537
476,27.16479
477,27.15139
478,27.14475
479,27.0496
480,27.07044
481,27.0953
482,27.11337
483,27.12285
484,27.10392
485,27.03669
486,27.00227
487,27.01755
488,26.99768
489,26.95756
490,26.89334
491,26.82548
492,26.79521
493,26.83681
494,26.83496
495,26.86529
496,26.83125
497,26.77455
498,26.72594
499,26.7361
500,26.72864
501,26.71335
502,26.68182
503,26.57213
504,26.58548
505,26.63318
506,26.63158
507,26.62627
508,26.5805
509,26.55402
510,26.54711
511,26.62792
512,26.68697
513,26.74264
514,26.71812
515,26.62249
516,26.43493
517,26.46448
518,26.46582
519,26.45897
520,26.4655
521,26.43157
522,26.4012
523,26.39195
524,26.4035
525,26.39674
526,26.38838
527,26.30511
528,26.27105
529,26.31109
530,26.31483
531,26.34609
532,26.35589
533,26.2245
534,26.26808
535,26.29715
536,26.3322
537,26.36925
538,26.41739
539,26.26232
540,26.10639
541,26.08845
542,26.06862
543,26.06329
544,26.07528
545,26.0019
546,25.98325
547,25.99094
548,26.00102
549,25.99529
550,25.99972
551,25.96697
552,25.95308
553,25.98957
554,25.95147
555,25.95035
556,25.9384
557,25.92519
558,25.91555
559,25.93561
560,25.922
561,25.89044
562,25.8861
563,25.87748
564,25.88837
565,25.90986
566,25.91668
567,25.88339
568,25.88194
569,25.85596
570,25.79543
571,25.80607
572,25.78009
573,25.75764
574,25.76143
575,25.73736
576,25.68431
577,25.69929
578,25.65542
579,25.66742
580,25.71058
581,25.66771
582,25.62362
583,25.58318
584,25.56345
585,25.59598
586,25.57832
587,25.57806
588,25.51196
589,25.48442
590,25.50365
591,25.52119
592,25.50448
593,25.50206
594,25.46226
595,25.45988
596,25.41924
597,25.4096
598,25.40132
599,25.38833
600,25.3439
601,25.3231
602,25.34166
603,25.33254
604,25.33725
605,25.36581
606,25.32221
607,25.26481
608,25.25717
609,25.26214
610,25.27105
611,25.29344
612,25.22456
613,25.19564
614,25.20426
615,25.19944
616,25.18178
617,25.20204
618,25.19856
619,25.27735
620,25.29547
621,25.24571
622,25.25712
623,25.23447
624,25.16738
625,24.96707
626,25.01174
627,24.86202
628,24.86302
629,24.88396
630,24.88258
631,24.84425
632,24.79593
633,24.80965
634,24.74997
635,24.80646
636,24.82059
637,24.79292
638,24.75869
639,24.73981
640,24.72546
641,24.75951
642,25.01754
643,24.98576
644,25.04214
645,25.03909
646,25.03535
647,25.00492
648,25.02373
649,25.00364
650,25.06197
651,24.98723
652,24.99068
653,25.05539
654,24.91688
655,24.88461
656,24.90194
657,24.92312
658,24.90174
659,24.90727
660,24.53826
661,24.47486
662,24.36505
663,24.35956
664,24.32273
665,24.46796
666,24.45476
667,24.24471
668,24.0761
669,24.06106
670,24.01542
671,24.2312
672,24.26296
673,24.21593
674,24.01588
675,24.01242
676,23.93849
677,24.36731
678,24.2864
679,35.53422
680,34.23352
681,33.32804
682,32.72731
683,32.31167
684,32.22121
685,32.0696
686,31.78917
687,31.60871
688,31.4352
689,31.36526
690,31.49226
691,31.44771
692,31.30954
693,31.22809
694,31.18708
695,31.18109
696,31.3458
697,31.27713
698,31.13203
699,31.04367
700,31.07727
701,31.21932
702,31.28701
703,31.1691
704,31.10153
705,31.01463
706,31.02465
707,31.10935
708,31.01863
709,30.83509
710,30.66349
711,30.51057
712,30.68431
713,30.78902
714,30.77976
715,30.52542
716,30.46921
717,30.41993
718,30.6302
719,30.73903
720,30.73209
721,30.49013
722,30.45768
723,30.39828
724,30.72657
725,30.87375
726,30.81118
727,30.73003
728,30.70912
729,30.70334
730,30.75604
731,30.73836
732,30.6083
733,30.56287
734,30.49829
735,30.46833
736,30.55284
737,30.52327
738,30.38991
739,30.2964
740,30.25681
741,30.39797
742,30.2713
743,30.1253
744,29.75064
745,29.58415
746,29.51296
747,29.88076
748,30.06074
749,29.76088
750,29.41446
751,29.35419
752,29.42057
753,29.91537
754,30.06126
755,29.85303
756,29.45362
757,29.43887
758,29.50583
759,29.83483
760,40.11331
761,39.53193
762,39.11414
763,38.77584
764,38.47334
765,38.30385
766,38.1218
767,38.01528
768,37.8136
769,37.78578
770,37.69489
771,37.56736
772,37.44614
773,37.33651
774,37.34432
775,37.27494
776,37.31039
777,37.11317
778,36.98361
779,36.92432
780,36.90946
781,36.86922
782,36.76653
783,36.66012
784,36.56268
785,36.5757
786,36.46934
787,36.52464
788,36.37511
789,36.26142
790,36.19407
791,36.14468
792,36.02699
793,36.06218
794,35.97015
795,35.87683
796,35.81648
797,35.76436
798,35.69685
799,35.6297
800,35.54109
801,35.48069
802,35.49602
803,35.44285
804,35.37361
805,35.22156
806,35.14937
807,35.10725
808,35.10726
809,35.06156
810,34.97941
811,34.88334
812,34.8163
813,34.83106
814,34.77622
815,34.72359
816,34.61473
817,34.54277
818,34.4851
819,34.49954
820,34.4614
821,34.41175
822,34.31209
823,34.25496
824,34.19942
825,34.21148
826,34.17092
827,34.11653
828,34.00766
829,33.96506
830,33.90219
831,33.87569
832,33.8304
833,33.7772
834,33.7244
835,33.67131
836,33.61889
837,33.60952
838,33.55209
839,33.4825
840,33.42313
841,33.37147
842,33.39762
843,33.38035
844,33.32982
845,33.21836
846,33.16368
847,33.10224
848,33.11862
849,33.09227
850,33.0491
851,32.94944
852,32.89237
853,32.84318
854,32.87408
855,32.83899
856,32.78787
857,32.665
858,32.60226
859,32.55551
860,32.5735
861,32.55631
862,32.4759
863,32.37004
864,32.32845
865,32.3227
866,32.31203
867,32.27329
868,32.18918
869,32.08395
870,32.02565
871,31.98237
872,31.94092
873,31.90257
874,31.83617
875,31.80216
876,31.7498
877,31.70139
878,31.70084
879,31.66504
880,31.6035
881,31.56515
882,31.50319
883,31.54863
884,31.52816
885,31.51259
886,31.41637
887,31.34317
888,31.30175
889,31.33992
890,31.34141
891,31.30124
892,31.20949
893,31.14124
894,31.08657
895,31.1265
896,31.12862
897,31.10918
898,31.01185
899,30.93206
900,30.88141
901,30.9208
902,30.91312
903,30.91121
904,30.81566
905,30.73888
906,30.68724
907,30.72505
908,30.73299
909,30.736
910,30.65274
911,30.56726
912,30.51978
913,30.4759
914,30.54552
915,30.51399
916,30.39965
917,30.34769
918,30.29209
919,30.23376
920,30.23128
921,30.19104
922,30.1238
923,30.0638
924,30.01373
925,30.06929
926,30.04717
927,30.03239
928,29.99715
929,29.88406
930,29.82169
931,29.7827
932,29.82983
933,29.80208
934,29.77311
935,29.65529
936,29.60442
937,29.54676
938,29.60952
939,29.61392
940,29.58148
941,29.44326
942,29.37781
943,29.31432
944,29.36503
945,29.37505
946,29.34586
947,29.22621
948,29.17009
949,29.1278
950,29.16364
951,29.14175
952,29.12619
953,29.02394
954,28.95361
955,28.9011
956,28.87081
957,28.83954
958,28.82448
959,28.76383
960,28.71029
961,28.6518
962,28.59895
963,28.58388
964,28.56923
965,28.52041
966,28.4765
967,28.44664
968,28.41406
969,28.48703
970,28.48845
971,28.47278
972,28.33786
973,28.28042
974,28.23315
975,28.28193
976,28.2547
977,28.24268
978,28.1455
979,28.11712
980,28.05614
981,28.09132
982,28.07434
983,28.05477
984,27.98845
985,27.90631
986,27.86013
987,27.80546
988,27.86267
989,27.85311
990,27.81318
991,27.6756
992,27.62701
993,27.57035
994,27.62752
995,27.60821
996,27.61819
997,27.47034
998,27.39808
999,27.34561
1000,27.30778
1001,27.32382
1002,27.31936
1003,27.22086
1004,27.15749
1005,27.10062
1006,27.04333
1007,27.03747
1008,27.01606
1009,26.94096
1010,26.88619
1011,26.80972
1012,26.80043
1013,26.83367
1014,26.81773
1015,26.75929
1016,26.61954
1017,26.58489
1018,26.50391
1019,26.55197
1020,26.53125
1021,26.49181
1022,26.3931
1023,26.30798
1024,26.24219
1025,26.23031
1026,26.23189
1027,26.16994
1028,26.10835
1029,25.95573
1030,25.8971
1031,25.81581
1032,25.86711
1033,25.80262
1034,25.73201
1035,25.63669
1036,25.53428
1037,25.43612
1038,25.45227
1039,25.3597
1040,25.30349
1041,25.20501
1042,25.11896
1043,25.0295
1044,24.91924
1045,24.92278
1046,24.83152
1047,24.70926
1048,24.57877
1049,24.47793
1050,24.34909
1051,24.28352
1052,24.23457
1053,24.15282
1054,24.00252
1055,23.4867
1056,23.4939
1057,23.53367
1058,22.97795
1059,42.30785
1060,41.87066
1061,41.52909
1062,41.33967
1063,41.18104
1064,41.02586
1065,40.8994
1066,40.79503
1067,40.74438
1068,40.68485
1069,40.60013
1070,40.50452
1071,40.43369
1072,40.40463
1073,40.34649
1074,40.2988
1075,40.19771
1076,40.13181
1077,40.10573
1078,40.08531
1079,40.03177
1080,39.89863
1081,39.83866
1082,39.85439
1083,39.85819
1084,39.8131
1085,39.75293
1086,39.68954
1087,39.64206
1088,39.62544
1089,39.55761
1090,39.50496
1091,39.5019
1092,39.47879
1093,39.45306
1094,39.43295
1095,39.37012
1096,39.35182
1097,39.31443
1098,39.337
1099,39.29031
1100,39.23398
1101,39.16776
1102,39.10219
1103,39.09407
1104,39.05573
1105,39.03842
1106,39.01179
1107,38.98168
1108,38.94867
1109,38.91203
1110,38.86923
1111,38.79635
1112,38.79012
1113,38.74873
1114,38.74203
1115,38.71333
1116,38.68022
1117,38.62681
1118,38.60684
1119,38.59751
1120,38.5992
1121,38.57839
1122,38.50416
1123,38.47115
1124,38.45298
1125,38.45159
1126,38.38531
1127,38.31817
1128,38.28076
1129,38.25924
1130,38.2688
1131,38.24532
1132,38.1953
1133,38.14821
1134,38.10879
1135,38.12156
1136,38.10528
1137,38.08158
1138,38.02779
1139,37.97578
1140,37.98397
1141,38.0135
1142,37.96254
1143,37.89736
1144,37.83998
1145,37.81192
1146,37.83275
1147,37.81727
1148,37.78263
1149,37.68752
1150,37.65624
1151,37.65066
1152,37.60625
1153,37.58308
1154,37.48849
1155,37.44874
1156,37.40786
1157,37.43557
1158,37.41055
1159,37.35066
1160,37.28806
1161,37.23084
1162,37.20161
1163,37.18746
1164,37.14303
1165,37.09174
1166,37.05056
1167,37.10584
1168,37.03188
1169,37.01448
1170,36.93755
1171,36.90047
1172,36.84549
1173,36.8619
1174,36.83285
1175,36.8125
1176,36.72073
1177,36.66068
1178,36.60738
1179,36.62656
1180,36.60392
1181,36.52348
1182,36.44467
1183,36.38035
1184,36.39794
1185,36.41551
1186,36.37282
1187,36.28381
1188,36.23036
1189,36.18655
1190,36.20231
1191,36.21902
1192,36.13667
1193,36.07508
1194,36.01627
1195,36.05267
1196,36.05487
1197,36.03378
1198,35.96054
1199,35.92267
1200,35.87791
1201,35.89117
1202,35.86728
1203,35.78827
1204,35.73825
1205,35.68158
1206,35.62581
1207,35.63268
1208,35.59175
1209,35.526
1210,35.48159
1211,35.43449
1212,35.45241
1213,35.46309
1214,35.41648
1215,35.32725
1216,35.28664
1217,35.30222
1218,35.28955
1219,35.27092
1220,35.20739
1221,35.1616
1222,35.11889
1223,35.13604
1224,35.14978
1225,35.09308
1226,35.01505
1227,34.9678
1228,34.92524
1229,34.97386
1230,34.96049
1231,34.90107
1232,34.8472
1233,34.80274
1234,34.80428
1235,34.80455
1236,34.77025
1237,34.7116
1238,34.65514
1239,34.61021
1240,34.57349
1241,34.56794
1242,34.51742
1243,34.4678
1244,34.42847
1245,34.37492
1246,34.36763
1247,34.33567
1248,34.29802
1249,34.25676
1250,34.21637
1251,34.24697
1252,34.27064
1253,34.22684
1254,34.14926
1255,34.0965
1256,34.05117
1257,34.08159
1258,34.06703
1259,34.03348
1260,33.95771
1261,33.92724
1262,33.87688
1263,33.917
1264,33.90395
1265,33.85493
1266,33.79396
1267,33.73827
1268,33.74231
1269,33.72984
1270,33.71532
1271,33.65351
1272,33.61068
1273,33.57228
1274,33.57907
1275,33.57215
1276,33.55627
1277,33.46617
1278,33.42138
1279,33.37209
1280,33.37127
1281,33.36883
1282,33.31268
1283,33.24994
1284,33.19597
1285,33.15319
1286,33.15284
1287,33.14482
1288,33.09256
1289,33.01503
1290,32.96568
1291,32.97936
1292,32.99866
1293,32.97445
1294,32.89625
1295,32.83465
1296,32.78696
1297,32.80254
1298,32.7995
1299,32.78246
1300,32.70775
1301,32.66961
1302,32.62261
1303,32.66275
1304,32.62476
1305,32.5949
1306,32.51044
1307,32.44765
1308,32.40626
1309,32.46744
1310,32.41526
1311,32.40241
1312,32.33372
1313,32.26975
1314,32.24757
1315,32.27242
1316,32.24324
1317,32.19757
1318,32.19237
1319,32.13623
1320,32.11633
1321,32.11773
1322,32.0911
1323,32.03877
1324,32.04382
1325,31.95911
1326,31.92181
1327,31.92775
1328,31.91824
1329,31.81003
1330,31.75261
1331,31.70298
1332,31.74016
1333,31.73985
1334,31.70103
1335,31.60213
1336,31.56418
1337,31.50102
1338,31.6088
1339,31.54807
1340,31.51685
1341,31.48753
1342,31.39402
1343,31.35543
1344,31.39267
1345,31.36872
1346,31.31227
1347,31.26543
1348,31.18686
1349,31.15638
1350,31.1851
1351,31.17469
1352,31.14486
1353,31.05208
1354,30.99726
1355,31.01811
1356,30.98132
1357,30.9215